trial,accuracy_percent,reaction_time_s
1,98,0.92
2,95,1.05
3,92,1.2
4,85,1.75
5,88,1.4
6,76,2.1
7,81,1.95
8,90,1.3
9,94,1.1
10,100,0.85
11,67,2.45
12,73,2
13,89,1.6
14,96,0.98
15,82,1.85
16,78,2.05
17,91,1.25
18,86,1.55
19,99,0.88
20,84,1.7
